Folder: ApprentissageAutomatiqueProjet/4 - Dataset (part 4)

File: regression_weld_data_noOutliers.csv
Carbon concentration (weight%),Silicon concentration (weight%),Manganese concentration (weight%),Sulphur concentration (weight%),Phosphorus concentration (weight%),Oxygen concentration (%),Titanium concentration (%),Nitrogen concentration (%),Current (A),Voltage (V),Heat input (kJ/mm),Interpass temperature (deg C),Post weld heat treatment temperature (deg C),Post weld heat treatment time (hours),Nickel concentration (weight%),Chromium concentration (weight%),Molybdenum concentration (weight%),Vanadium concentration (weight%),Copper concentration (weight%),Aluminium concentration (%),Boron concentration (%),Niobium concentration (%),AC or DC,Electrode positive or negative,Type of weld,Yield strength (MPa),Ultimate tensile strength (MPa),Elongation (%),Reduction of Area (%),Charpy temperature (deg C),Charpy impact toughness (J)
0.037,0.3,0.65,0.008,0.012,0.0422,0.0042,0.008,170.0,21.0,1.0,200.0,250.0,14.0,0.0,6.6186,0.943861,0.219566,0.158641,0.0101931,0.00140757,0.0283535,0.0,1.0,0.0,392.0,466.0,31.9,80.6,,
0.038,0.31,0.63,0.007,0.012,0.0422,0.0042,0.008,170.0,21.0,1.0,200.0,250.0,14.0,1.09,1.09159,1.11103,0.0178235,0.0728602,0.00495088,0.000131411,0.005,0.0,1.0,0.0,423.0,497.0,30.6,78.8,,
0.046,0.32,1.81,0.007,0.015,0.0422,0.0042,0.008,170.0,21.0,1.0,200.0,0.0,0.0,2.33,3.01171,0.389465,0.214807,0.656821,0.0223519,0.0017943,0.0261037,0.0,1.0,0.0,,,,,-30.0,100.0
0.076,0.34,1.36,0.005,0.011,0.0476,0.0005,0.0057,170.0,21.0,1.0,200.0,0.0,0.0,1.40904,0.990853,0.626226,0.0378264,0.57337,0.015,0.00118899,0.00259977,0.0,1.0,0.0,,,,,-20.0,100.0
0.078,0.44,1.31,0.005,0.008,0.0431,0.0036,0.005,170.0,21.0,1.0,200.0,250.0,14.0,0.557178,3.57852,0.97515,0.189688,0.0532643,0.034,0.00188696,0.0176463,0.0,1.0,0.0,491.0,564.0,28.2,78.9,,
0.069,0.51,1.39,0.004,0.008,0.0379,0.0069,0.0041,170.0,21.0,1.0,200.0,0.0,0.0,1.18755,2.71593,0.356377,0.278936,0.640948,0.048,0.00228857,0.0344497,0.0,1.0,0.0,,,,,-54.0,100.0
0.094,0.17,1.0,0.008,0.012,0.0636,0.0042,0.016,180.0,34.0,1.0,175.0,750.0,8.0,0.215113,8.99,1.03,0.21,0.108532,0.0144639,0.0003,0.052,0.0,1.0,0.0,,,,,-14.0,28.0
0.045,0.33,1.85,0.007,0.016,0.0422,0.0042,0.008,170.0,21.0,1.0,200.0,0.0,0.0,1.58406,0.0,0.562918,0.0574254,0.0881315,0.0186022,0.000853293,0.005,0.0,1.0,0.0,,,,,-45.0,100.0
0.051,0.33,1.83,0.006,0.013,0.0422,0.0042,0.008,170.0,21.0,1.0,200.0,0.0,0.0,0.0485695,0.52,0.310109,0.053639,0.144947,0.0243842,0.000726341,0.0362822,0.0,1.0,0.0,,,,,-35.0,100.0
0.054,0.33,1.72,0.007,0.014,0.0422,0.0042,0.008,170.0,21.0,1.0,200.0,580.0,2.0,0.215113,2.36,0.569533,0.0178235,0.0728602,0.00495088,0.000189449,0.00454114,0.0,1.0,0.0,697.0,757.0,19.6,69.7,,
0.08,0.33,1.41,0.006,0.009,0.0432,0.0043,0.0061,170.0,21.0,1.0,200.0,0.0,0.0,0.450828,0.213978,1.17829,0.0005,0.171964,0.0078,0.0005,0.0005,0.0,1.0,0.0,,,,,-55.0,100.0
0.078,0.44,1.31,0.005,0.008,0.0431,0.0036,0.0052,170.0,21.0,1.0,200.0,580.0,2.0,1.13777,0.990853,0.394353,0.0005,0.302963,0.034,0.0005,0.0005,0.0,1.0,0.0,409.0,528.0,31.0,78.9,,
0.072,0.36,0.64,0.008,0.006,0.0436,0.0034,0.0084,170.0,21.0,1.0,200.0,250.0,14.0,0.215113,4.79676,1.49159,0.0815,0.0813329,0.0005,0.0005,0.0005,0.0,1.0,0.0,490.0,563.0,25.2,77.0,,
0.072,0.33,1.22,0.008,0.006,0.0447,0.0029,0.0085,170.0,21.0,1.0,200.0,0.0,0.0,0.618274,0.835899,1.50883,0.019,0.0728602,0.0005,0.0005,0.0005,0.0,1.0,0.0,,,,,-66.0,100.0
0.076,0.25,1.72,0.005,0.008,0.0405,0.0025,0.0086,170.0,21.0,1.0,200.0,580.0,2.0,1.1406,0.990853,0.0257104,0.0605,0.0125364,0.0005,0.0005,0.0005,0.0,1.0,0.0,521.0,597.0,24.4,74.0,-44.0,100.0
0.074,0.34,1.0,0.007,0.006,0.0424,0.0037,0.0086,170.0,21.0,1.0,200.0,250.0,14.0,0.138616,0.990853,0.446856,0.0005,0.0728602,0.0005,0.0005,0.0255,0.0,1.0,0.0,513.0,594.0,28.0,76.0,,
0.077,0.32,1.77,0.007,0.006,0.0418,0.0031,0.0089,170.0,21.0,1.0,200.0,0.0,0.0,0.471202,2.05078,0.0287982,0.0004,0.191631,0.0005,0.0005,0.0125,0.0,1.0,0.0,,,,,-54.0,100.0
0.043,0.3,0.69,0.006,0.007,0.0422,0.0042,0.008,170.0,21.0,1.0,200.0,580.0,2.0,0.0839293,0.990853,0.0306126,0.00180016,0.237409,0.00946177,0.000885011,0.005,0.0,1.0,0.0,,,,,-60.0,15.0
0.045,0.29,1.83,0.005,0.008,0.0422,0.0042,0.008,170.0,21.0,1.0,200.0,580.0,2.0,1.14351,2.75624,0.412267,0.0265683,0.0728602,0.00495088,0.000873762,0.0365414,0.0,1.0,0.0,,,,,-50.0,117.0
0.066,0.35,1.36,0.007,0.008,0.0422,0.0042,0.008,170.0,21.0,1.0,200.0,580.0,2.0,0.495269,2.60558,1.10881,0.0546477,0.0924876,0.00495088,0.000465496,0.0365461,0.0,1.0,0.0,,,,,-20.0,201.0
0.095,0.36,1.05,0.007,0.008,0.0422,0.0042,0.008,170.0,21.0,1.0,200.0,580.0,2.0,0.610605,0.990853,0.349672,0.0178235,0.147883,0.00495088,0.000581231,0.0157517,0.0,1.0,0.0,,,,,20.0,220.0
0.147,0.35,1.38,0.007,0.007,0.0422,0.0042,0.008,170.0,21.0,1.0,200.0,580.0,2.0,0.43461,1.45803,0.394353,0.0178235,0.121357,0.00495088,0.000542376,0.005,0.0,1.0,0.0,513.0,623.0,27.4,72.9,,
0.071,0.36,1.46,0.004,0.006,0.04,0.0022,0.0085,170.0,21.0,1.0,200.0,250.0,14.0,0.589485,6.43579,0.763136,0.14791,0.0728602,0.0043886,0.000870833,0.0151962,0.0,1.0,4.0,497.0,563.0,30.6,77.0,,
0.065,0.39,1.53,0.005,0.006,0.0351,0.014,0.0093,170.0,21.0,1.0,200.0,0.0,0.0,0.215113,0.990853,0.063812,0.0178235,0.0271507,0.00301246,0.000863236,0.0196738,0.0,1.0,4.0,,,,,-44.0,100.0
0.078,0.44,0.71,0.006,0.008,0.0306,0.0225,0.0076,170.0,21.0,1.0,200.0,250.0,14.0,0.215113,1.89095,0.792485,0.0005,0.0728602,0.0005,0.0005,0.0005,0.0,1.0,0.0,440.0,523.0,31.4,77.0,,
0.077,0.32,1.33,0.007,0.005,0.0422,0.0036,0.0083,170.0,21.0,1.0,200.0,0.0,0.0,1.07981,0.990853,0.394353,0.0005,0.435166,0.0005,0.0005,0.0005,0.0,1.0,0.0,,,,,-68.0,100.0
0.075,0.32,1.83,0.006,0.007,0.0346,0.017,0.0082,170.0,21.0,1.0,200.0,580.0,2.0,0.00376167,0.923057,0.490363,0.0005,0.0728602,0.0005,0.0005,0.0005,0.0,1.0,0.0,471.0,565.0,27.8,78.0,-57.0,100.0
0.038,0.3,1.0,0.005,0.014,0.046,0.0042,0.01,170.0,21.0,1.0,150.0,500.0,2.0,0.42386,5.14839,0.361319,0.104533,0.360274,0.00263649,0.00096349,0.00854336,0.0,1.0,0.0,402.0,490.0,31.0,80.6,-44.0,100.0
0.06,0.44,1.6,0.01,0.018,0.0395,0.0042,0.0102,170.0,21.0,1.8,100.0,250.0,16.0,0.03,0.990853,0.01,0.0851082,0.02,0.0131446,0.000709882,0.005,0.0,1.0,0.0,550.0,615.0,,,,
0.032,0.45,1.27,0.008,0.01,0.0321,0.013,0.0094,180.0,23.0,1.0,250.0,0.0,0.0,0.330185,0.252483,0.810199,0.034676,0.0728602,0.009,0.00102531,0.005,0.0,1.0,0.0,,,,,0.0,152.0
0.059,0.33,1.09,0.008,0.01,0.031,0.01,0.0064,180.0,23.0,1.0,250.0,0.0,0.0,0.215113,3.88783,0.331895,0.102479,0.0728602,0.007,0.0009023,0.0184238,0.0,1.0,0.0,,,,,-40.0,86.0
0.089,0.35,1.18,0.011,0.01,0.0404,0.012,0.0073,180.0,23.0,1.0,250.0,0.0,0.0,0.215113,0.990853,0.394353,0.0178235,0.0589284,0.008,0.000296616,0.0117483,0.0,1.0,0.0,450.0,,,,,
0.12,0.43,0.86,0.011,0.014,0.0329,0.015,0.0054,180.0,23.0,1.0,250.0,0.0,0.0,0.741939,0.990853,0.702559,0.0431504,0.36185,0.005,0.000689782,0.005,0.0,1.0,0.0,,,,,0.0,183.0
0.069,0.56,1.12,0.016,0.011,0.0837,0.028,0.0041,280.0,30.0,2.8,200.0,200.0,14.0,0.58,0.06,0.537561,0.013,0.744437,0.003,0.0003,0.009,0.0,1.0,2.0,,572.0,,,,
0.072,0.38,1.09,0.006,0.009,0.0467,0.0033,0.0085,170.0,21.0,1.0,200.0,0.0,0.0,0.215113,2.8,0.394353,0.120888,0.410806,0.00518881,0.000808656,0.0135897,0.0,1.0,0.0,,,,,20.0,100.0
0.08,0.62,1.85,0.013,0.017,0.0152,0.022,0.0052,700.0,32.0,4.8,200.0,0.0,0.0,0.45,0.05,0.01,0.01,0.81,0.024,0.001,0.00471442,0.0,1.0,1.0,504.0,743.0,27.0,46.0,18.0,35.0
0.07,0.47,0.85,0.013,0.024,0.0422,0.008,0.012,170.0,21.0,1.8,150.0,600.0,2.1,0.0,0.0,0.0,0.01,0.0,0.0043,0.000564356,0.0,0.0,1.0,0.0,,,,,,
0.076,0.28,1.27,0.012,0.02,0.0435,0.01,0.0121,550.0,28.0,3.6,100.0,0.0,0.0,0.1,0.06,0.01,0.01,0.15,0.016,0.001,0.03,0.0,1.0,1.0,503.0,625.0,17.0,72.0,-5.0,70.0
0.051,0.32,1.8,0.006,0.012,0.0422,0.0042,0.008,170.0,21.0,1.0,200.0,0.0,0.0,0.215113,0.174579,0.579384,0.0178235,0.0728602,0.00495088,0.000542376,0.0148242,0.0,1.0,0.0,,,,,-44.0,100.0
0.042,0.32,1.02,0.007,0.012,0.0422,0.0042,0.008,170.0,21.0,1.0,240.0,0.0,0.0,0.215113,3.81905,0.709258,0.165751,0.0108785,0.0223047,0.00139535,0.0164966,0.0,1.0,0.0,427.0,499.0,34.6,80.5,-42.0,100.0
0.08,0.3,1.35,0.013,0.014,0.042,0.005,0.009,650.0,33.0,3.3,300.0,600.0,0.75,0.03,0.03,0.005,0.046,0.043,0.023,0.00121492,0.015,0.0,1.0,1.0,522.0,670.0,26.0,63.0,,
0.1,0.39,1.68,0.027,0.009,0.0422,0.0,0.008,650.0,33.0,3.3,300.0,600.0,0.75,1.31862,1.90213,0.5,0.08,0.364894,0.00495088,0.000165034,0.0,0.0,1.0,1.0,669.0,735.0,,,,
0.06,0.34,1.08,0.007,0.014,0.048,0.01,0.011,116.0,23.0,1.3,175.0,760.0,2.0,0.69,9.0,1.03,0.29,0.02,0.01,0.00169934,0.01,0.0,1.0,0.0,,,,,,
0.081,0.34,0.49,0.004,0.012,0.0422,0.002,0.024,300.0,12.5,1.4,177.0,746.0,1.0,0.08,8.57,0.98,0.22,0.05,4e-07,0.001,0.0313164,0.0,1.0,8.0,682.0,783.0,26.0,74.0,,
0.09,0.24,0.68,0.013,0.006,0.052,0.0042,0.008,500.0,30.0,3.6,200.0,690.0,10.0,0.2,2.22,1.03,0.0129547,0.414865,0.01,0.000263385,0.0165884,0.0,1.0,6.0,,,,,2.0,127.0
0.14,0.18,0.75,0.002,0.005,0.0256,0.0042,0.0021,500.0,29.0,2.9,200.0,690.0,8.0,2.03926,2.3,1.01,0.27,0.461055,0.037899,0.00145249,0.02,1.0,0.0,1.0,,,,,-20.0,80.0
0.06,0.2,1.15,0.007,0.017,0.035,0.0042,0.0097,170.0,21.0,2.4,125.0,605.0,1.92,0.16,0.052,0.45,0.00703964,0.128,0.00891995,0.000646555,0.0042428,0.0,1.0,1.0,,,,,,
0.047,0.42,1.0,0.015,0.016,0.0695,0.0042,0.0165,300.0,28.0,2.08,150.0,690.0,10.0,0.17,2.29,1.04,0.018,0.0728602,0.00495088,0.000581694,0.000705793,0.0,1.0,2.0,,,,,-40.0,12.0
0.067,0.13,0.94,0.017,0.026,0.055,0.0042,0.008,150.0,37.5,1.0,300.0,690.0,3.0,0.682851,2.9,1.4,0.16898,0.607282,0.0204553,0.00151098,0.0124812,0.0,1.0,0.0,546.0,658.0,18.0,65.0,,
0.08,0.25,0.8,0.01,0.01,0.0422,0.0042,0.008,525.0,30.0,1.75,210.0,700.0,20.0,0.03,2.3,1.05,0.01,0.02,0.00112007,0.000741299,0.0076397,0.0,1.0,1.0,507.0,613.0,,,,
0.095,0.35,0.9,0.008,0.02,0.0269,0.0042,0.0054,450.0,30.0,2.025,250.0,200.0,1.0,0.0,0.0,0.0,0.0,0.0,0.017,0.000224161,0.0,0.0,1.0,1.0,394.0,496.0,34.2,78.0,,
0.061,0.53,1.01,0.009,0.01,0.0307,0.0042,0.0079,190.0,23.0,1.0925,250.0,200.0,1.0,0.0,0.0,0.0,0.0,0.0,0.001,0.000281862,0.0,0.0,1.0,0.0,449.0,525.0,30.6,78.0,,
0.075,0.3,0.63,0.008,0.008,0.0438,0.0005,0.008,170.0,21.0,1.0,200.0,250.0,14.0,0.0,0.0,1.03,0.0005,0.0,0.0005,0.0005,0.0005,0.0,0.0,0.0,528.0,619.0,20.6,73.0,,
0.063,0.31,0.65,0.006,0.009,0.0472,0.0038,0.0085,170.0,21.0,1.0,200.0,250.0,14.0,0.88,0.0,0.0,0.0005,0.0,0.0005,0.0005,0.0005,0.0,0.0,0.0,,,,,-63.0,100.0
0.078,0.28,0.64,0.008,0.007,0.0482,0.0042,0.0095,170.0,21.0,1.0,200.0,250.0,14.0,0.0,2.15,0.0,0.0005,0.0,0.0005,0.0005,0.0005,0.0,0.0,0.0,,,,,-33.0,28.0
0.076,0.24,1.41,0.008,0.006,0.0447,0.0005,0.0085,170.0,21.0,1.0,200.0,250.0,14.0,0.0,0.0,1.11,0.0005,0.0,0.0005,0.0005,0.0005,0.0,0.0,0.0,594.0,699.0,19.2,68.6,,
0.076,0.25,1.48,0.008,0.006,0.0417,0.0033,0.0081,170.0,21.0,1.0,200.0,250.0,14.0,0.95,0.0,0.0,0.0005,0.0,0.0005,0.0005,0.0005,0.0,0.0,0.0,,,,,-62.0,100.0
0.09,0.34,0.89,0.008,0.016,0.0396,0.0042,0.0096,450.0,30.0,2.0,200.0,760.0,2.0,0.17,8.2,0.94,0.02,0.0728602,0.00495088,0.000542376,0.005,0.0,1.0,1.0,660.0,,,,,