Folder: ApprentissageAutomatiqueProjet/4 - Dataset (part 2)

File: clustering_weld_data_removed_outliers.csv
Carbon concentration (ppm),Silicon concentration (ppm),Manganese concentration (ppm),Heat input (kJ/mm),Interpass temperature (deg C),Type of weld,Sulphur concentration (ppm),Phosphorus concentration (ppm),Oxygen concentration (ppm),Nitrogen concentration (ppm),Current (A),Voltage (V),Post weld heat treatment temperature (deg C),Post weld heat treatment time (hours),AC or DC,Electrode positive or negative,Nickel concentration (ppm),Chromium concentration (ppm),Molybdenum concentration (ppm),Vanadium concentration (ppm),Copper concentration (ppm),Titanium concentration (ppm),Aluminium concentration (ppm),Boron concentration (ppm),Niobium concentration (ppm),Yield strength (MPa),Ultimate tensile strength (MPa),Elongation (%),Reduction of Area (%),Charpy temperature (deg C),Charpy impact toughness (J)
0.293333,0.511111,0.0780142,0.105263,0.0,0,0.4375,0.0731707,0.864407,0.193966,0.0,0.0,0.0,0.0,0.0,1.0,0.634151,0.131062,0.396417,0.368504,0.326782,0.23487,0.402708,0.503464,0.343927,0.434739,0.482454,0.455267,0.470182,0.464433,0.409731
0.533333,0.0888889,0.404255,1.0,0.0,3,0.625,0.341463,0.528249,0.24569,1.0,1.0,0.0,0.0,0.0,1.0,0.234447,0.305617,0.328566,0.389969,0.364403,0.642184,0.51887,0.283687,0.437916,0.288538,0.313673,0.664722,0.425569,0.711759,0.515296
0.233333,0.488889,0.319149,0.105263,0.0,0,0.3125,0.097561,0.714689,0.24569,0.0,0.0,0.763158,0.0833333,0.0,1.0,0.421085,0.283507,0.253024,0.270687,0.380833,0.155858,0.55916,0.491502,0.41795,0.342289,0.33745,0.737603,0.63958,0.496693,0.562523
0.22,0.4,0.0851064,0.105263,0.0,0,0.375,0.097561,0.810734,0.228448,0.0,0.0,0.328947,0.583333,0.0,0.0,0.438014,0.244673,0.315284,0.368504,0.514152,0.299869,0.402708,0.503464,0.343927,0.34101,0.334478,0.596699,0.584456,0.206354,0.209711
0.32,0.4,0.879433,0.105263,0.0,0,0.3125,0.0731707,0.754237,0.383621,0.0,0.0,0.763158,0.0833333,0.0,1.0,0.498162,0.290954,0.450845,0.368279,0.19558,0.27944,0.402708,0.503464,0.494556,0.515062,0.526181,0.421782,0.516361,0.545083,0.409731
0.253333,0.355556,0.070922,0.105263,0.0,0,0.375,0.0731707,0.878531,0.224138,0.0,0.0,0.328947,0.583333,0.0,0.0,0.438014,0.244673,0.315284,0.368504,0.498661,0.229298,0.402708,0.503464,0.343927,0.307735,0.289896,0.601557,0.522847,0.37303,0.409731
0.306667,0.288889,0.680851,0.105263,0.0,0,0.375,0.0487805,0.70904,0.258621,0.0,0.0,0.328947,0.583333,0.0,0.0,0.820726,0.244673,0.315284,0.368504,0.240472,0.281297,0.402708,0.503464,0.343927,0.444673,0.41324,0.548111,0.584456,0.378406,0.409731
0.186667,0.466667,0.0780142,0.105263,0.0,0,0.3125,0.0731707,0.714689,0.24569,0.0,0.0,0.763158,0.0833333,0.0,1.0,0.304145,0.305585,0.37337,0.305814,0.194647,0.228166,0.365606,0.536945,0.357455,0.301336,0.285438,0.698733,0.581213,0.38916,0.168041
0.0866667,0.422222,0.304965,0.105263,0.0,0,0.3125,0.146341,0.714689,0.24569,0.0,0.0,0.763158,0.0833333,0.0,1.0,0.435254,0.28392,0.489992,0.202905,0.212614,0.11211,0.554135,0.253195,0.428862,0.396041,0.390949,0.586981,0.522847,0.523576,0.409731
0.306667,0.488889,0.595745,0.105263,0.0,0,0.1875,0.170732,0.875706,0.155172,0.0,0.0,0.0,0.0,0.0,1.0,0.783644,0.311365,0.642974,0.503683,0.274984,0.229298,0.515487,0.483118,0.297462,0.506572,0.610056,0.354412,0.246128,0.399913,0.209711
0.533333,0.0888889,0.404255,1.0,0.0,3,0.625,0.341463,0.528249,0.24569,1.0,1.0,0.0,0.0,0.0,1.0,0.647101,0.3834,0.328566,0.389969,0.364403,0.417357,0.382898,0.580053,0.410196,0.288538,0.313673,0.664722,0.425569,0.38916,0.173597
0.286667,0.511111,0.0851064,0.105263,0.0,0,0.1875,0.0,0.740113,0.241379,0.0,0.0,0.328947,0.583333,0.0,1.0,0.58174,0.29748,0.355436,0.368053,0.191505,0.290583,0.402708,0.503464,0.343927,0.321813,0.328534,0.696304,0.53906,0.632312,0.689782
0.28,0.577778,0.404255,0.105263,0.0,0,0.25,0.121951,0.850282,0.275862,0.0,0.0,0.0,0.0,0.0,1.0,0.70004,0.452017,0.406729,0.252361,0.289121,0.281297,0.324531,0.639368,0.431433,0.274408,0.336248,0.628529,0.565459,0.819292,0.409731
0.253333,0.6,0.702128,0.105263,0.0,0,0.3125,0.121951,0.316384,0.625,0.0,0.0,0.0,0.0,0.0,1.0,0.277484,0.343269,0.411598,0.645755,0.308482,0.777146,0.713794,0.487184,0.396637,0.506103,0.502404,0.47037,0.555273,0.572551,0.315141
0.326667,0.555556,0.921986,0.105263,0.0,0,0.25,0.0731707,0.446328,0.258621,0.0,0.0,0.763158,0.0833333,0.0,1.0,0.61728,0.419104,0.598227,0.368504,0.351452,0.693576,0.402708,0.503464,0.343927,0.413958,0.448905,0.601557,0.555273,0.383783,0.409731
0.413333,0.511111,0.269504,0.368421,0.0,1,0.375,0.292683,0.734463,0.336207,0.615385,0.175644,1.0,0.0833333,0.0,1.0,0.655556,0.866707,0.744747,0.751469,0.633385,0.562358,0.632819,0.545826,0.675311,0.872125,0.882535,0.349458,0.141396,0.537961,0.254698
0.306667,0.511111,0.347518,0.105263,0.0,0,0.375,0.0243902,0.663842,0.228448,0.0,0.0,0.328947,0.583333,0.0,1.0,0.432944,0.293479,0.409831,0.368504,0.374053,0.296154,0.402708,0.503464,0.343927,0.374284,0.370144,0.642857,0.522847,0.314841,0.259458
0.44,0.0222222,0.148936,1.0,0.0,3,1.0,0.439024,0.584746,0.258621,1.0,1.0,0.0,0.0,0.0,1.0,0.366228,0.341714,0.505664,0.389969,0.312765,0.323442,0.605663,0.372519,0.635127,0.259103,0.324076,0.664722,0.198588,0.604226,0.440289
0.78,0.533333,0.35461,0.105263,0.0,0,0.3125,0.0731707,0.714689,0.24569,0.0,0.0,0.763158,0.0833333,0.0,1.0,0.732262,0.288493,0.43468,0.34845,0.293304,0.040661,0.353849,0.494646,0.317473,0.424196,0.450392,0.601557,0.519604,0.38916,0.22638
0.6,0.0444444,0.361702,0.605263,0.0,1,0.0,0.0487805,0.0,0.00431034,0.725275,0.156128,0.907895,1.0,1.0,0.0,0.50308,0.414992,0.771312,0.977406,0.265459,0.751394,0.644536,0.530715,0.474472,0.553358,0.62872,0.495354,0.221221,0.352696,0.330074
0.313333,0.444444,0.886525,0.105263,0.0,0,0.3125,0.0487805,0.711864,0.293103,0.0,0.0,0.763158,0.0833333,0.0,1.0,0.610049,0.297862,0.326598,0.368279,0.38565,0.277583,0.402708,0.503464,0.424262,0.477948,0.493488,0.480088,0.425569,0.383783,0.409731
0.34,0.377778,0.64539,0.105263,0.0,0,0.25,0.219512,0.833333,0.142241,0.0,0.0,0.0,0.0,0.0,1.0,0.396093,0.261535,0.270496,0.300153,0.282628,0.229298,0.445487,0.707805,0.349625,0.664523,0.646801,0.250495,0.421166,0.502069,0.209711
0.293333,0.533333,0.0780142,0.105263,0.0,0,0.375,0.0243902,0.751412,0.232759,0.0,0.0,0.763158,0.0833333,0.0,1.0,0.44621,0.424658,0.362778,0.502937,0.275523,0.277583,0.402708,0.503464,0.343927,0.393481,0.407296,0.50924,0.490421,0.561213,0.409731
0.28,0.444444,0.0992908,0.105263,0.0,0,0.3125,0.0731707,0.69209,0.237069,0.0,0.0,0.328947,0.583333,0.0,0.0,0.438014,0.244673,0.771312,0.368504,0.240472,0.294297,0.402708,0.503464,0.343927,0.530419,0.551444,0.460653,0.490421,0.534329,0.409731
0.293333,0.466667,0.0851064,0.105263,0.0,0,0.375,0.0487805,0.830508,0.383621,0.0,0.0,0.328947,0.583333,0.0,1.0,0.600351,0.231162,0.220069,0.368053,0.539365,0.29244,0.402708,0.503464,0.929706,0.509943,0.506862,0.47037,0.321806,0.974211,0.561957
0.286667,0.488889,0.687943,0.105263,0.0,4,0.125,0.0731707,0.649718,0.271552,0.0,0.0,0.0,0.0,0.0,1.0,0.426139,0.146961,0.222953,0.214544,0.408526,0.249726,0.523472,0.336775,0.385562,0.35427,0.289777,0.675888,0.703781,0.394536,0.409731
0.0866667,0.266667,0.602837,0.973684,0.0,0,0.375,0.219512,0.714689,0.24569,0.0,0.0,0.328947,0.583333,0.0,1.0,0.587776,0.228314,0.441525,0.487189,0.428898,0.404686,0.621391,0.651736,0.201751,0.325652,0.33745,0.659863,0.63958,0.314048,0.569104
0.78,0.533333,0.35461,0.105263,0.0,0,0.3125,0.0731707,0.714689,0.24569,0.0,0.0,0.763158,0.0833333,0.0,1.0,0.378023,0.337048,0.669871,0.372011,0.277989,0.431148,0.495822,0.620659,0.581542,0.424196,0.450392,0.601557,0.519604,0.335393,0.179153
0.133333,0.577778,0.638298,0.0,0.0,0,0.3125,0.121951,0.714689,0.24569,0.0,0.0,0.0,0.0,0.0,1.0,0.569284,0.363576,0.542204,0.459185,0.448546,0.308341,0.57861,0.548949,0.573109,0.291303,0.297856,0.765985,0.528283,0.459056,0.409731
0.1,0.444444,0.319149,0.105263,0.0,0,0.3125,0.195122,0.714689,0.24569,0.0,0.0,0.763158,0.0833333,0.0,1.0,0.339977,0.321687,0.371905,0.443165,0.407543,0.0786433,0.438605,0.41719,0.619206,0.410119,0.438503,0.523817,0.522847,0.545083,0.409731
0.333333,0.466667,0.631206,0.105263,0.0,0,0.25,0.121951,0.751412,0.172414,0.0,0.0,0.0,0.0,0.0,1.0,0.439025,0.309814,0.31986,0.368504,0.317443,0.299869,0.459487,0.503464,0.343927,0.213282,0.296544,0.648671,0.45734,0.416043,0.409731
0.306667,0.288889,0.851064,0.105263,0.0,0,0.1875,0.097561,0.675141,0.280172,0.0,0.0,0.763158,0.0833333,0.0,1.0,0.356104,0.194637,0.680225,0.504067,0.436278,0.26644,0.402708,0.503464,0.343927,0.474108,0.481599,0.480088,0.425569,0.475186,0.409731
0.32,0.311111,0.070922,0.105263,0.0,0,0.3125,0.0243902,0.864407,0.340517,0.0,0.0,0.328947,0.583333,0.0,0.0,0.438014,0.363155,0.315284,0.368504,0.240472,0.273869,0.402708,0.503464,0.343927,0.458751,0.480113,0.300313,0.425569,0.523576,0.209711
0.26,0.4,0.595745,0.105263,0.0,0,0.3125,0.121951,0.751412,0.198276,0.0,0.0,0.763158,0.0833333,0.0,1.0,0.499547,0.217265,0.216683,0.368504,0.350138,0.288726,0.402708,0.503464,0.343927,0.310295,0.33745,0.659863,0.522847,0.174094,0.209711
0.0466667,0.377778,0.0567376,0.105263,0.0,0,0.25,0.121951,0.714689,0.24569,0.0,0.0,0.0,0.0,0.0,1.0,0.42474,0.286759,0.376408,0.445894,0.50367,0.292513,0.608203,0.525649,0.245583,0.329385,0.261536,0.649476,0.786591,0.545083,0.409731
0.466667,0.266667,0.985816,1.0,0.0,3,0.875,0.292683,0.175141,0.228448,1.0,1.0,0.0,0.0,0.0,1.0,0.520203,0.307348,0.324139,0.389969,0.266291,0.27217,0.331725,0.636973,0.189563,0.288538,0.416212,0.689016,0.295865,0.38916,0.215268
0.293333,0.466667,0.333333,0.105263,0.0,0,0.375,0.0487805,0.641243,0.288793,0.0,0.0,0.328947,0.583333,0.0,1.0,0.452809,0.379792,0.227169,0.368279,0.261736,0.288726,0.402708,0.503464,0.65188,0.515062,0.512807,0.441217,0.425569,0.607193,0.371559
0.306667,0.866667,0.553191,0.105263,0.0,0,0.1875,0.097561,0.725989,0.125,0.0,0.0,0.763158,0.0833333,0.0,1.0,0.341083,0.35957,0.359252,0.368504,0.287234,0.299869,0.779934,0.503464,0.343927,0.34101,0.37906,0.59184,0.584456,0.34077,0.409731
0.533333,0.0444444,0.148936,0.605263,0.0,1,0.0,0.0243902,0.248588,0.0215517,0.725275,0.156128,0.907895,1.0,1.0,0.0,0.5497,0.414992,0.771312,0.977406,0.843812,0.667729,0.674656,0.45392,0.474472,0.602726,0.612373,0.31094,0.305698,0.269664,0.285502
0.233333,0.6,0.716312,0.105263,0.0,4,0.1875,0.0487805,0.522599,0.310345,0.0,0.0,0.0,0.0,0.0,1.0,0.426792,0.364804,0.467134,0.560012,0.326315,0.480008,0.644453,0.626923,0.200662,0.460057,0.382304,0.578651,0.386913,0.367653,0.209711
0.3,0.377778,0.87234,0.105263,0.0,4,0.25,0.0243902,0.299435,0.323276,0.0,0.0,0.0,0.0,0.0,1.0,0.544984,0.375226,0.405304,0.605053,0.281867,0.693576,0.434939,0.706757,0.452663,0.482086,0.427483,0.440092,0.870349,0.416043,0.409731
0.24,0.755556,0.631206,0.105263,0.0,0,0.125,0.121951,0.680791,0.12069,0.0,0.0,0.0,0.0,0.0,1.0,0.498246,0.418742,0.497014,0.678514,0.3792,0.66572,0.741044,0.571613,0.305328,0.368369,0.449848,0.570355,0.349712,0.485939,0.409731

File: clustering_weld_data_with_capped_outliers.csv
Carbon concentration (ppm),Silicon concentration (ppm),Manganese concentration (ppm),Heat input (kJ/mm),Interpass temperature (deg C),Type of weld,Sulphur concentration (ppm),Phosphorus concentration (ppm),Oxygen concentration (ppm),Nitrogen concentration (ppm),Current (A),Voltage (V),Post weld heat treatment temperature (deg C),Post weld heat treatment time (hours),AC or DC,Electrode positive or negative,Nickel concentration (ppm),Chromium concentration (ppm),Molybdenum concentration (ppm),Vanadium concentration (ppm),Copper concentration (ppm),Titanium concentration (ppm),Aluminium concentration (ppm),Boron concentration (ppm),Niobium concentration (ppm),Yield strength (MPa),Ultimate tensile strength (MPa),Elongation (%),Reduction of Area (%),Charpy temperature (deg C),Charpy impact toughness (J)
0.119205,0.493506,0.368687,0.23125,0.0,2,0.482759,0.28,0.659251,0.543396,0.235669,0.259843,0.907895,0.416667,0.0,1.0,0.468392,0.57716,0.743051,0.457401,0.477353,0.661366,0.645717,0.417948,0.511197,0.417506,0.322989,0.206386,0.084567,0.609631,0.701459
0.668874,0.337662,0.570707,1.0,0.0,1,0.310345,0.2,0.348946,0.279245,0.936306,0.370079,0.0,0.0,0.0,1.0,0.436638,0.457952,0.379015,0.42634,0.465324,0.419414,0.431468,0.573241,0.424748,0.40686,0.322989,0.450269,0.555726,0.45629,0.542651
0.470199,0.493506,0.348485,0.078125,0.0,0,0.0689655,0.08,0.313817,1.0,0.0356688,0.149606,1.0,0.333333,0.0,1.0,0.468392,0.925161,0.7325,0.830134,0.441663,0.418774,0.336567,0.505796,0.929847,0.513857,0.531738,0.61835,0.424083,0.548636,0.473329
0.311258,0.38961,0.550505,0.0625,0.0,0,0.137931,0.18,0.40281,0.135849,0.0700637,0.149606,0.0,0.0,0.0,1.0,0.512942,0.427871,0.56762,0.44599,0.682098,0.425292,0.482905,0.352411,0.404381,0.335979,0.27434,0.544842,0.55134,0.365651,0.521209
0.125828,0.376623,0.79798,0.0625,0.0,0,0.206897,0.22,0.339578,0.233962,0.0700637,0.149606,0.328947,0.583333,0.0,1.0,0.538229,0.468643,0.189256,0.387847,0.423005,0.36298,0.675528,0.363205,0.502604,0.463133,0.325539,0.62169,0.700698,0.180151,0.238543
0.635762,0.285714,0.540404,1.0,0.0,1,0.37931,0.22,0.141686,0.256604,0.936306,0.370079,0.0,0.0,0.0,1.0,0.436638,0.457417,0.378311,0.432164,0.579249,0.425292,0.474483,0.591702,0.424748,0.368839,0.283465,0.664409,0.652374,0.490203,0.851397
0.324503,0.519481,0.525253,0.0625,0.0,0,0.137931,0.12,0.350117,0.109434,0.0700637,0.149606,0.0,0.0,0.0,1.0,0.609682,0.381669,0.31368,0.371816,0.486168,0.465783,0.668278,0.707368,0.266263,0.450092,0.300157,0.600955,0.758366,0.234512,0.521209
0.198675,0.376623,0.414141,0.0625,0.0,0,0.241379,0.16,0.208431,0.162264,0.0828025,0.181102,0.0,0.0,0.0,1.0,0.391665,0.540012,0.708929,0.598269,0.439616,0.549377,0.404852,0.44439,0.477502,0.254773,0.188001,0.741717,0.743926,0.426646,0.735257
0.139073,0.545455,0.348485,0.1875,0.0,0,0.310345,0.3,0.364169,0.237736,0.0700637,0.149606,0.815789,0.0416667,0.0,1.0,0.423936,0.328812,0.380773,0.404557,0.441663,0.301633,0.345737,0.506031,0.352361,0.233481,0.178917,0.621177,0.884729,0.262358,0.650829
0.311258,0.272727,0.59596,0.0625,0.0,0,0.241379,0.08,0.380562,0.215094,0.0700637,0.149606,0.328947,0.583333,0.0,0.0,0.41441,0.454745,0.553119,0.423428,0.430528,0.425292,0.341435,0.494292,0.301981,0.396214,0.310239,0.438957,0.700698,0.414447,0.521209
0.331126,0.337662,0.651515,0.0625,0.0,0,0.206897,0.18,0.350117,0.290566,0.0700637,0.149606,0.328947,0.583333,0.0,0.0,0.41441,0.509805,0.377256,0.423428,0.430528,0.454027,0.341435,0.494292,0.301981,0.549822,0.389288,0.455569,0.676536,0.24976,0.521209
0.337748,0.714286,0.792929,0.65625,0.0,1,0.413793,0.26,0.0421546,0.10566,0.745223,0.322835,0.0,0.0,0.0,1.0,0.557303,0.457417,0.380773,0.44187,0.653226,0.7453,0.570713,0.494292,0.446766,0.361234,0.464511,0.677064,0.386592,0.460194,0.338141
0.298013,0.402597,0.181818,0.0625,0.0,0,0.275862,0.1,0.398126,0.169811,0.0700637,0.149606,0.763158,0.0833333,0.0,1.0,0.415716,0.473542,0.455345,0.423428,0.591082,0.42921,0.341435,0.494292,0.301981,0.107249,0.106244,0.743513,0.747814,0.265009,0.521209
0.238411,0.38961,0.353535,0.0625,0.0,0,0.206897,0.12,0.339578,0.233962,0.0700637,0.149606,0.763158,0.0833333,0.0,1.0,0.603564,0.535004,0.558714,0.51509,0.45171,0.531802,0.423876,0.197947,0.381928,0.236523,0.169992,0.870873,0.768352,0.213163,0.281813
0.317881,0.337662,0.368687,0.0625,0.0,0,0.241379,0.1,0.388759,0.233962,0.0700637,0.149606,0.0,0.0,0.0,1.0,0.588676,0.487514,0.491999,0.423428,0.358852,0.427904,0.341435,0.494292,0.301981,0.398876,0.370443,0.798203,0.455416,0.25586,0.521209
0.311258,0.25974,0.575758,0.0625,0.0,0,0.241379,0.08,0.368852,0.241509,0.0700637,0.149606,0.328947,0.583333,0.0,0.0,0.41441,0.454745,0.767672,0.423428,0.430528,0.425292,0.341435,0.494292,0.301981,0.504196,0.423712,0.433419,0.62338,0.274159,0.318426
0.192053,0.376623,0.181818,0.0625,0.0,0,0.206897,0.1,0.339578,0.233962,0.0700637,0.149606,0.763158,0.0833333,0.0,1.0,0.456957,0.345193,0.396098,0.162028,0.686575,0.602934,0.697414,0.480912,0.451479,0.187855,0.125368,0.826574,0.746606,0.243661,0.27618
0.317881,0.402597,0.378788,0.0625,0.0,0,0.206897,0.06,0.312646,0.203774,0.0700637,0.149606,0.0,0.0,0.0,1.0,0.67843,0.480516,0.638829,0.423234,0.64789,0.472314,0.341435,0.494292,0.301981,0.454122,0.419395,0.394563,0.474787,0.243661,0.521209
0.211921,0.376623,0.550505,0.0625,0.0,4,0.137931,0.08,0.336066,0.226415,0.0700637,0.149606,0.0,0.0,0.0,1.0,0.55101,0.254179,0.315349,0.250586,0.347288,0.455334,0.324229,0.70572,0.238673,0.228192,0.168763,0.617507,0.802749,0.210114,0.521209
0.245033,0.545455,0.575758,0.0625,0.0,0,0.103448,0.14,0.322014,0.10566,0.0700637,0.149606,0.0,0.0,0.0,1.0,0.463627,0.0172962,0.31251,0.227395,0.317629,0.732238,0.765844,0.370728,0.134371,0.409126,0.208727,0.775994,0.799847,0.219263,0.318426
0.536424,0.12987,0.232323,0.359375,0.0,1,0.0344828,0.06,0.142857,0.0188679,0.490446,0.275591,0.907895,0.333333,1.0,0.0,0.309578,0.577694,0.739534,0.946614,0.484676,0.497374,0.540598,0.624404,0.438779,0.589624,0.473436,0.426373,0.538336,0.365651,0.290262
0.331126,0.688312,0.530303,0.0625,0.0,0,0.103448,0.12,0.339578,0.101887,0.0700637,0.149606,0.328947,0.583333,0.0,1.0,0.351252,0.297615,0.475728,0.423428,0.315675,0.468395,0.931704,0.494292,0.301981,0.347546,0.259241,0.710289,0.72486,0.157776,0.372661
0.139073,0.272727,0.444444,0.28125,0.0,1,0.482759,0.44,0.339578,0.449057,0.0700637,0.149606,0.789474,0.0875,0.0,1.0,0.41441,0.454745,0.377256,0.430223,0.497337,0.457946,0.439,0.580225,0.33355,0.190136,0.147935,0.718595,0.646333,0.325123,0.693001
0.337748,0.701299,0.444444,0.0769531,0.0,0,0.310345,0.16,0.208431,0.116981,0.0955414,0.181102,0.263158,0.0416667,0.0,1.0,0.41441,0.454745,0.377256,0.422457,0.430528,0.488633,0.346313,0.314003,0.298474,0.349067,0.263065,0.66599,0.700698,0.440983,0.589881
0.390728,0.25974,0.39899,0.0625,0.0,0,0.206897,0.22,0.47541,0.50566,0.0828025,0.354331,0.986842,0.333333,0.0,1.0,0.627637,0.940129,0.728982,0.868961,0.328808,0.359757,0.165549,0.494292,0.691328,0.543739,0.492561,0.366971,0.504986,0.451044,0.318426
0.807947,0.415584,0.181818,0.0625,0.0,0,0.241379,0.12,0.339578,0.233962,0.0700637,0.149606,0.763158,0.0833333,0.0,1.0,0.577404,0.233698,0.386253,0.361047,0.350954,0.507068,0.428406,0.213241,0.554004,0.28367,0.212067,0.74905,0.712779,0.304656,0.419817
0.801325,0.363636,0.469697,0.15625,0.0,1,0.551724,0.46,0.339578,0.29434,0.0700637,0.149606,0.0,0.0,0.0,1.0,0.41441,0.454745,0.377256,0.422457,0.430528,0.418761,0.424365,0.489139,0.298474,0.416898,0.332934,0.732438,0.616131,0.284467,0.344377
0.10596,0.571429,0.353535,0.1875,0.0,0,0.310345,0.32,0.348946,0.324528,0.0700637,0.149606,0.815789,0.0416667,0.0,1.0,0.423936,0.585517,0.489808,0.670948,0.441663,0.414551,0.290776,0.208508,0.259313,0.338421,0.27709,0.768224,0.588422,0.478574,0.293081
0.536424,0.415584,0.964646,0.0625,0.0,0,0.241379,0.18,0.245902,0.2,0.0828025,0.181102,0.0,0.0,0.0,1.0,0.552016,0.640478,0.75132,0.658164,0.524438,0.5755,0.365826,0.42111,0.450838,0.539176,0.472249,0.397208,0.521398,0.304656,0.419817
0.403974,0.428571,0.383838,0.109375,0.0,0,0.103448,0.16,0.395785,1.0,0.0828025,0.181102,1.0,0.333333,0.0,1.0,0.430287,0.925161,0.739534,0.907787,0.436095,0.549377,0.434122,0.571956,0.859695,0.518458,0.544656,0.235545,0.443614,0.609593,0.418366
0.668874,0.337662,0.560606,1.0,0.0,1,0.448276,0.52,0.339578,0.233962,0.936306,0.417323,0.0,0.0,0.0,1.0,0.432827,0.457952,0.379015,0.606883,0.475068,0.49713,0.482905,0.576057,0.33355,0.40686,0.327291,0.289447,0.519483,0.280348,0.487424
0.264901,0.337662,0.550505,0.0625,0.0,0,0.206897,0.14,0.351288,0.173585,0.0700637,0.149606,0.763158,0.0833333,0.0,1.0,0.718894,0.526082,0.48942,0.423428,0.473364,0.467089,0.341435,0.494292,0.301981,0.198501,0.169992,0.782275,0.72486,0.121671,0.318426
0.602649,0.337662,0.570707,0.421875,0.0,1,0.517241,1.0,0.339578,0.233962,0.681529,0.338583,0.0,0.0,0.0,1.0,0.458866,0.460625,0.386049,0.432164,0.569714,0.558,0.482905,0.262937,0.33355,0.24869,0.245617,0.483256,0.446997,0.259376,0.266022
0.331126,0.688312,0.530303,0.0625,0.0,0,0.103448,0.12,0.339578,0.116981,0.0700637,0.149606,0.328947,0.583333,0.0,1.0,0.393816,0.417094,0.367449,0.569093,0.348582,0.468395,0.931704,0.817702,0.270092,0.347546,0.259241,0.710289,0.72486,0.237709,0.521891
0.10596,0.285714,0.717172,0.25,0.0,0,0.206897,0.2,0.339578,0.233962,0.0700637,0.149606,0.0,0.0,0.0,1.0,0.583938,0.321157,0.472476,0.315254,0.509746,0.602524,0.541168,0.906686,0.205826,0.117808,0.107251,0.814173,0.829213,0.313805,0.521209
0.324503,0.519481,0.489899,0.292969,0.0,1,0.37931,0.32,0.406323,0.150943,0.55414,0.291339,0.263158,0.0416667,0.0,1.0,0.41441,0.454745,0.377256,0.422457,0.430528,0.477817,0.5512,0.24966,0.298474,0.200022,0.157243,0.776737,0.700698,0.361704,0.608171
0.602649,0.337662,0.570707,0.421875,0.0,1,0.517241,1.0,0.339578,0.233962,0.681529,0.338583,0.328947,0.0833333,0.0,1.0,0.458866,0.460625,0.386049,0.432164,0.569714,0.345226,0.482905,0.543301,0.33355,0.256294,0.254139,0.649377,0.543645,0.310488,0.449994
0.0927152,0.337662,0.212121,0.0625,0.0,0,0.172414,0.1,0.339578,0.233962,0.0700637,0.149606,0.763158,0.0833333,0.0,1.0,0.724355,0.0,0.0,0.0815872,0.575667,0.838828,0.681815,0.483963,0.0848837,0.168084,0.103694,0.854261,0.797346,0.213163,0.264914
0.304636,0.350649,0.383838,0.0625,0.0,0,0.241379,0.1,0.306792,0.218868,0.0700637,0.149606,0.763158,0.0833333,0.0,1.0,0.829303,0.513503,0.348027,0.423428,0.528119,0.538927,0.341435,0.494292,0.301981,0.171125,0.131743,0.798887,0.758687,0.25586,0.521209
0.271523,0.246753,0.368687,0.109375,0.0,0,0.0344828,0.08,0.384075,0.864151,0.00127389,0.181102,0.973684,0.333333,0.0,1.0,0.598583,0.898433,0.704361,0.888374,0.436095,0.549377,0.434122,0.382477,0.536993,0.61189,0.521374,0.506509,0.59473,0.20443,0.16506
0.470199,0.233766,0.141414,0.21875,0.0,5,0.275862,0.22,0.149883,0.233962,0.490446,0.322835,0.907895,0.416667,0.0,1.0,0.481093,0.598008,0.746569,0.589513,0.815567,0.887445,0.531687,0.637856,0.477121,0.349067,0.310239,0.649377,0.724755,0.304656,0.442349