Folder: ApprentissageAutomatiqueProjet/4 - Dataset (part 3)

File: new_weld_data_with_target.csv
Carbon concentration (weight%),Silicon concentration (weight%),Manganese concentration (weight%),Sulphur concentration (weight%),Phosphorus concentration (weight%),Oxygen concentration (%),Nitrogen concentration (%),Current (A),Voltage (V),Heat input (kJ/mm),Interpass temperature (deg C),Post weld heat treatment temperature (deg C),Post weld heat treatment time (hours),Nickel concentration (weight%),Chromium concentration (weight%),Molybdenum concentration (weight%),Vanadium concentration (weight%),Copper concentration (weight%),Titanium concentration (%),Aluminium concentration (%),Boron concentration (%),Niobium concentration (%),AC or DC,Electrode positive or negative,Type of weld,Yield strength (MPa),Ultimate tensile strength (MPa),Elongation (%),Reduction of Area (%),Charpy temperature (deg C),Charpy impact toughness (J),Hardness (kg/mm2),target
0.09,0.2,1.25,0.011,0.022,0.069,0.0082,150.0,37.5,1.0,300.0,690.0,3.0,1.71912,2.4,0.9,0.174189,0.148993,0.0221137,0.0515918,0.00282926,0.0432312,0.0,1.0,0.0,594.0,680.0,20.0,66.0,,,231.0,1
0.069,0.3,1.36,0.007,0.009,0.0432,0.0068,170.0,21.0,1.0,200.0,0.0,0.0,0.526955,3.18257,0.852303,0.1029,0.400491,0.0037,0.0005,0.00199241,0.0237935,0.0,1.0,0.0,,,,,-72.0,100.0,,0
0.055,0.35,1.93,0.007,0.011,0.0421,0.0082,170.0,21.0,0.6,200.0,0.0,0.0,0.775064,5.7464,0.480766,0.0752066,0.16294,0.00139835,0.007,0.000773747,0.0029758,0.0,1.0,0.0,,,,,-28.0,100.0,,-1
0.048,0.33,1.85,0.007,0.013,0.0421,0.0082,170.0,21.0,1.0,200.0,250.0,14.0,0.209381,0.26,0.486974,0.0505701,0.243548,0.0160095,0.0212343,0.00119475,0.00786923,0.0,1.0,0.0,567.0,622.0,26.0,75.0,,,,-1
0.075,0.3,1.31,0.008,0.006,0.0441,0.0081,170.0,21.0,1.0,200.0,0.0,0.0,0.412557,1.5151,0.612357,0.0005,0.0830941,0.0005,0.0005,0.0005,0.0005,0.0,1.0,0.0,,,,,-29.0,100.0,,-1
0.072,0.38,1.5,0.006,0.01,0.0291,0.0077,170.0,21.0,1.0,200.0,0.0,0.0,0.461447,1.35831,0.428673,0.018,0.146245,0.026,0.0308409,0.00128098,0.00786923,0.0,1.0,0.0,509.0,578.0,26.4,78.9,,,,-1
0.076,0.51,1.3,0.005,0.008,0.0423,0.005,170.0,21.0,1.0,200.0,580.0,2.0,0.405699,1.35831,0.47247,0.0005,0.505404,0.0043,0.049,0.0005,0.0005,0.0,1.0,0.0,417.0,528.0,29.0,78.9,-84.0,28.0,,-1
0.078,0.35,1.02,0.007,0.005,0.0368,0.0083,170.0,21.0,1.0,200.0,580.0,2.0,0.360431,1.97189,1.16151,0.0004,0.0579187,0.0036,0.0005,0.0005,0.012,0.0,1.0,0.0,447.0,540.0,30.4,77.0,-55.0,100.0,,-1
0.072,0.24,1.32,0.006,0.008,0.0397,0.0068,170.0,21.0,1.0,200.0,0.0,0.0,1.08399,6.61861,1.16651,0.154789,0.225816,0.018,0.0047,0.00265137,0.0553197,0.0,1.0,0.0,,,,,-54.0,28.0,,-1
0.079,0.39,1.37,0.005,0.011,0.0446,0.0047,170.0,21.0,1.0,200.0,0.0,0.0,0.944538,1.35831,0.47247,0.0316237,0.0720009,0.0005,0.025,0.000749981,0.00786923,0.0,1.0,0.0,,,,,-56.0,28.0,,-1
0.079,0.37,1.82,0.006,0.007,0.0324,0.0081,170.0,21.0,1.0,200.0,580.0,2.0,1.20061,2.0908,1.04534,0.0005,0.0830941,0.0255,0.0005,0.0005,0.0005,0.0,1.0,0.0,474.0,575.0,29.4,78.0,-61.0,100.0,,-1
0.07,0.34,1.06,0.006,0.008,0.0463,0.0085,170.0,21.0,1.0,200.0,580.0,2.0,0.212834,1.57,0.231306,0.0808568,0.423389,0.0041,0.00796144,0.00102881,0.0368579,0.0,1.0,0.0,,,,,-48.0,100.0,,-1
0.081,0.48,1.42,0.004,0.006,0.0444,0.0046,170.0,21.0,1.0,200.0,250.0,14.0,1.13475,1.35831,0.47314,0.156333,0.467312,0.0004,0.066,0.00138937,0.0126493,0.0,1.0,0.0,466.0,551.0,26.2,78.9,,,,-1
0.077,0.44,1.61,0.012,0.021,0.0434,0.0105,450.0,30.0,2.025,250.0,200.0,1.0,0.0,0.0,0.0,0.0,0.0,0.0180912,0.018,0.00170896,0.0,0.0,1.0,1.0,455.0,563.0,29.4,73.0,,,,-1
0.07,0.31,0.66,0.006,0.008,0.043,0.0079,170.0,21.0,1.0,200.0,250.0,14.0,0.0,0.0,0.24,0.0005,0.0,0.0005,0.0005,0.0005,0.0005,0.0,0.0,0.0,433.0,518.0,26.0,78.9,-87.0,28.0,,-1
0.1,0.22,0.55,0.009,0.013,0.026,0.0082,500.0,32.0,2.0,250.0,690.0,10.0,0.21,2.68,1.05,0.0179088,0.246763,0.0143153,0.02,0.00169485,0.0211522,0.0,1.0,5.0,492.0,610.0,27.0,,-20.0,147.0,,-1
0.047,0.42,1.0,0.015,0.016,0.0695,0.0165,300.0,28.0,2.08,150.0,690.0,10.0,0.17,2.29,1.04,0.018,0.0830941,0.00597292,0.007,0.000773747,0.0151654,0.0,1.0,2.0,537.0,620.0,11.0,24.0,60.0,164.0,,-1
0.03,0.55,0.88,0.012,0.013,0.0421,0.0082,545.0,32.0,3.7,200.0,720.0,3.5,0.212834,2.06,1.08,0.0840118,0.138802,0.00297475,0.00475447,0.00155618,0.0283249,0.0,1.0,1.0,315.0,500.0,,,,,,-1
0.076,0.28,0.64,0.008,0.008,0.0492,0.0081,170.0,21.0,1.0,200.0,250.0,14.0,0.0,2.1,0.0,0.0005,0.0,0.0008,0.0005,0.0005,0.0005,0.0,0.0,0.0,565.0,660.0,,68.6,26.0,100.0,,-1
0.048,0.13,1.06,0.014,0.016,0.0768,0.0266,300.0,28.0,1.96,150.0,690.0,10.0,0.23,2.02,1.3,0.02,0.0830941,0.00793697,0.007,0.00153596,0.00786923,0.0,1.0,2.0,506.0,598.0,22.0,70.0,-40.0,15.0,,-1
0.077,0.34,1.39,0.007,0.007,0.0409,0.0099,170.0,21.0,1.0,200.0,250.0,14.0,0.212834,1.14236,0.569511,0.0004,0.00802372,0.0032,0.0005,0.0005,0.0455,0.0,1.0,0.0,586.0,641.0,24.2,76.0,,,,-1
0.1,0.39,1.68,0.027,0.01,0.0421,0.0082,650.0,33.0,3.3,300.0,600.0,0.75,0.882397,2.8993,0.5,0.08,0.250586,0.0,0.00459162,0.000779443,0.0,0.0,1.0,1.0,669.0,735.0,,,,,,-1
0.095,0.35,0.9,0.008,0.02,0.0269,0.0054,450.0,30.0,2.025,250.0,200.0,1.0,0.0,0.0,0.0,0.0,0.0,0.00390726,0.017,0.000773747,0.0,0.0,1.0,1.0,408.0,501.0,32.6,77.0,,,,-1
0.098,0.39,2.25,0.008,0.014,0.033,0.0088,180.0,23.0,1.0,250.0,0.0,0.0,0.134,1.35831,0.082796,0.018,0.132931,0.013,0.003,0.00108138,0.00786923,0.0,1.0,0.0,541.0,,,,-20.0,126.0,,-1
0.066,0.35,1.36,0.007,0.008,0.0421,0.0082,170.0,21.0,1.0,200.0,580.0,2.0,1.56139,4.58678,1.04108,0.115441,0.0830941,0.0129966,0.00528599,0.00208988,0.0237638,0.0,1.0,0.0,455.0,540.0,31.2,77.9,-60.0,72.0,,-1
0.074,0.29,1.49,0.006,0.013,0.0471,0.0072,170.0,21.0,1.0,200.0,0.0,0.0,0.179493,1.35831,0.47247,0.018,0.0830941,0.0005,0.0006,0.000773747,0.00786923,0.0,1.0,0.0,,,,,-41.0,28.0,,-1
0.071,0.4,0.64,0.008,0.006,0.0411,0.0088,170.0,21.0,1.0,200.0,0.0,0.0,1.51229,1.48849,0.617094,0.0435,0.0830941,0.0036,0.0005,0.0005,0.0005,0.0,1.0,0.0,,,,,-43.0,100.0,,-1
0.051,0.36,1.79,0.007,0.013,0.0421,0.0082,170.0,21.0,1.0,200.0,580.0,2.0,3.42,1.18899,0.669863,0.0675594,0.155145,0.014931,0.0128846,0.00175685,0.00120929,0.0,1.0,0.0,662.0,745.0,24.0,67.5,,,,-1
0.14,0.38,1.65,0.028,0.01,0.0421,0.0082,650.0,33.0,3.3,300.0,600.0,0.75,0.23115,1.37871,0.5,0.005,0.0403452,0.0,0.00105728,0.000773747,0.0,0.0,1.0,1.0,644.0,714.0,34.0,63.0,,,,-1
0.045,0.33,1.85,0.007,0.016,0.0421,0.0082,170.0,21.0,1.0,200.0,0.0,0.0,1.82783,0.0,0.547731,0.0892859,0.428169,0.00873953,0.0288809,0.00213697,0.00786923,0.0,1.0,0.0,,,,,-45.0,100.0,,-1
0.051,0.32,1.8,0.006,0.012,0.0421,0.0082,170.0,21.0,1.0,200.0,250.0,14.0,0.896755,3.84498,0.691889,0.126501,0.119955,0.00354975,0.015219,0.000922237,0.0121978,0.0,1.0,0.0,507.0,587.0,29.2,76.9,,,,-1
0.074,0.27,1.11,0.009,0.024,0.0556,0.0113,290.0,29.0,2.0,150.0,690.0,10.0,0.17,2.3,0.96,0.018,0.0830941,0.00471423,0.007,0.00136753,0.0144701,0.0,1.0,2.0,595.0,675.0,24.0,69.0,0.0,31.0,,-1
0.06,0.34,1.08,0.007,0.014,0.048,0.011,116.0,23.0,1.3,175.0,760.0,2.0,0.69,9.0,1.03,0.29,0.02,0.01,0.01,0.00309431,0.01,0.0,1.0,0.0,,,,,,,204.0,-1
0.077,0.35,1.02,0.007,0.005,0.0399,0.0075,170.0,21.0,1.0,200.0,580.0,2.0,0.212834,0.136237,0.413282,0.0004,0.0830941,0.0041,0.0005,0.0005,0.0005,0.0,1.0,0.0,332.0,461.0,33.3,80.3,-80.0,100.0,,-1
0.069,0.3,1.36,0.007,0.009,0.0432,0.0067,170.0,21.0,1.0,200.0,0.0,0.0,0.545602,1.35831,0.646194,0.0005,0.227269,0.0037,0.0005,0.0005,0.0005,0.0,1.0,0.0,,,,,-72.0,100.0,,-1
0.068,0.32,1.38,0.004,0.005,0.0376,0.0074,170.0,21.0,1.0,200.0,250.0,14.0,0.212834,1.35831,0.47247,0.00539263,0.293399,0.0077,0.0175893,0.00105711,0.00786923,0.0,1.0,4.0,466.0,542.0,30.6,80.6,,,,-1
0.07,0.46,1.19,0.01,0.018,0.0771,0.0046,280.0,30.0,2.8,200.0,200.0,14.0,0.01,0.1,0.335576,0.016,0.0600516,0.043,0.037,0.0019,0.007,0.0,1.0,2.0,,538.0,,,,,,-1
0.089,0.22,1.05,0.007,0.013,0.0592,0.046,180.0,34.0,1.0,175.0,750.0,8.0,0.602509,9.0,1.04,0.23,0.338079,0.0236444,0.0121022,0.0064,0.07,0.0,1.0,0.0,643.0,777.0,15.7,60.2,21.0,50.0,,-1
0.084,0.3,0.54,0.005,0.008,0.066,0.0066,170.0,21.0,2.4,175.0,690.0,2.33,0.036,2.2,1.05,0.0167453,0.035,0.0143317,0.00382105,0.000538261,0.0116847,0.0,1.0,1.0,,,,,-50.0,40.0,,-1
0.074,0.25,0.58,0.008,0.01,0.05,0.0089,170.0,21.0,1.0,200.0,250.0,14.0,0.0,1.59,0.0,0.0005,0.0,0.0004,0.0005,0.0005,0.0005,0.0,0.0,0.0,494.0,593.0,19.0,71.9,-22.0,100.0,,-1
0.08,0.59,1.84,0.013,0.016,0.0155,0.0054,700.0,32.0,4.8,200.0,0.0,0.0,0.01,0.05,0.01,0.01,0.38,0.023,0.024,0.0008,0.0137774,0.0,1.0,1.0,507.0,694.0,30.0,58.0,9.0,35.0,,-1
0.073,0.34,1.49,0.004,0.007,0.0396,0.0084,170.0,21.0,1.0,200.0,0.0,0.0,1.3655,1.35831,0.343631,0.018,0.1621,0.0016,0.007,0.000375232,0.00786923,0.0,1.0,4.0,,,,,-85.0,28.0,,-1
0.076,0.3,1.36,0.008,0.006,0.037,0.0084,170.0,21.0,1.0,200.0,250.0,14.0,1.30537,1.51532,0.993075,0.0004,0.204906,0.0033,0.0005,0.0005,0.0235,0.0,1.0,0.0,540.0,597.0,26.4,76.0,,,,-1
0.037,0.31,1.03,0.007,0.014,0.0421,0.0082,170.0,21.0,1.0,200.0,580.0,2.0,0.212834,0.0,0.316856,0.018,0.0830941,0.00767177,0.007,0.000773747,0.00786923,0.0,1.0,0.0,402.0,490.0,31.0,80.6,-44.0,100.0,,-1
0.06,0.34,1.08,0.007,0.014,0.048,0.011,116.0,23.0,1.3,175.0,720.0,2.0,0.69,9.0,1.03,0.29,0.02,0.01,0.01,0.00198105,0.01,0.0,1.0,0.0,,,,,,,224.0,-1
0.077,0.44,1.61,0.012,0.021,0.0434,0.0105,450.0,30.0,2.025,250.0,200.0,1.0,0.0,0.0,0.0,0.0,0.0,0.0174244,0.018,0.000650546,0.0,0.0,1.0,1.0,456.0,567.0,27.6,73.0,,,,-1
0.08,0.67,1.94,0.013,0.015,0.0142,0.0057,700.0,32.0,4.8,200.0,0.0,0.0,0.51,0.05,0.01,0.01,0.43,0.028,0.022,0.004,0.00786923,0.0,1.0,1.0,489.0,807.0,27.0,42.0,51.0,35.0,,-1
0.06,0.34,1.08,0.007,0.014,0.048,0.011,116.0,23.0,1.3,175.0,0.0,0.0,0.69,9.0,1.03,0.29,0.02,0.01,0.01,0.0020487,0.01,0.0,1.0,0.0,,,,,,,373.0,-1
0.077,0.26,1.73,0.007,0.008,0.0423,0.0072,170.0,21.0,1.0,200.0,250.0,14.0,0.0121941,2.41861,0.64934,0.0235,0.0830941,0.0027,0.0005,0.0005,0.0005,0.0,1.0,0.0,543.0,607.0,23.2,77.0,,,,-1
0.049,0.34,1.42,0.005,0.013,0.041,0.009,170.0,21.0,1.0,150.0,0.0,0.0,0.212834,1.35831,0.50149,0.018,0.00400606,0.00355595,0.0107528,0.000773747,0.00649649,0.0,1.0,0.0,468.0,551.0,29.4,78.7,-53.0,100.0,,-1
0.088,0.34,1.33,0.008,0.007,0.0421,0.0082,170.0,21.0,1.0,200.0,580.0,2.0,0.420329,5.37102,0.703875,0.101651,0.0830941,0.00674603,0.00901065,0.000998281,0.00315523,0.0,1.0,0.0,461.0,568.0,28.6,77.9,-60.0,106.0,,-1
0.11,0.14,0.73,0.002,0.005,0.0254,0.0026,500.0,29.0,2.9,200.0,690.0,24.0,2.32842,2.3,1.03,0.27,0.256588,0.0126058,0.04611,0.00396091,0.02,1.0,0.0,1.0,,685.0,,,,,,-1
0.075,0.32,1.83,0.006,0.007,0.0346,0.0082,170.0,21.0,1.0,200.0,0.0,0.0,0.449864,4.7279,1.051,0.0005,0.0830941,0.017,0.0005,0.0005,0.0005,0.0,1.0,0.0,,,,,-52.0,100.0,,-1
0.14,0.18,0.75,0.002,0.005,0.0256,0.0021,500.0,29.0,2.9,200.0,690.0,8.0,0.53885,2.3,1.01,0.27,0.479514,0.00675813,0.0349497,0.00158071,0.02,1.0,0.0,1.0,,770.0,,,-20.0,80.0,,-1

File: regression_weld_data.csv
Carbon concentration (weight%),Silicon concentration (weight%),Manganese concentration (weight%),Sulphur concentration (weight%),Phosphorus concentration (weight%),Oxygen concentration (%),Nitrogen concentration (%),Current (A),Voltage (V),Heat input (kJ/mm),Interpass temperature (deg C),Post weld heat treatment temperature (deg C),Post weld heat treatment time (hours),Nickel concentration (weight%),Chromium concentration (weight%),Molybdenum concentration (weight%),Vanadium concentration (weight%),Copper concentration (weight%),Titanium concentration (%),Aluminium concentration (%),Boron concentration (%),Niobium concentration (%),AC or DC,Electrode positive or negative,Type of weld,Yield strength (MPa),Ultimate tensile strength (MPa),Elongation (%),Reduction of Area (%),Charpy temperature (deg C),Charpy impact toughness (J),Hardness (kg/mm2)
0.037,0.3,0.65,0.008,0.012,0.0422,0.0083,170.0,21.0,1.0,200.0,250.0,14.0,0.0,1.17437,0.172986,1.11015,0.190747,0.00665847,0.001399,0.000718125,0.00775959,0.0,1.0,0.0,392.0,466.0,31.9,80.6,,,
0.043,0.33,1.0,0.006,0.013,0.0422,0.0083,170.0,21.0,1.0,200.0,580.0,2.0,1.1,1.17437,0.43,0.499921,0.282785,0.007,0.0194101,0.000288593,0.00775959,0.0,1.0,0.0,443.0,521.0,31.8,77.8,-51.0,100.0,
0.048,0.33,1.4,0.007,0.013,0.0422,0.0083,170.0,21.0,1.0,200.0,580.0,2.0,3.47,5.08708,0.662792,0.01,0.120899,0.00696466,0.007,0.000556599,0.03993,0.0,1.0,0.0,584.0,677.0,26.6,70.8,56.0,100.0,
0.079,0.39,1.37,0.005,0.011,0.0446,0.0047,170.0,21.0,1.0,200.0,0.0,0.0,0.791627,4.96733,0.921227,0.000743541,0.105,0.0005,0.025,0.00180049,0.0528901,0.0,1.0,0.0,,,,,-25.0,100.0,
0.074,0.32,1.5,0.006,0.006,0.0375,0.0089,170.0,21.0,1.0,200.0,0.0,0.0,0.17443,3.54507,1.03464,0.642756,0.105,0.0099,0.0008,0.000646958,0.0126066,0.0,1.0,0.0,,,,,-52.0,100.0,
0.074,0.41,1.36,0.005,0.005,0.0418,0.0049,170.0,21.0,1.0,200.0,0.0,0.0,0.17443,0.0168193,0.501816,0.0707785,0.293578,0.026,0.032,0.00245919,0.00775959,0.0,1.0,0.0,,,,,-47.0,100.0,
0.09,0.18,0.98,0.008,0.012,0.0642,0.046,180.0,34.0,1.0,175.0,750.0,8.0,0.313012,8.9,1.0,0.22,0.105,0.0017028,0.00653729,0.0003,0.052,0.0,1.0,0.0,542.0,697.0,18.8,65.3,12.0,100.0,
0.037,0.31,1.03,0.007,0.014,0.0422,0.0083,170.0,21.0,1.0,200.0,0.0,0.0,0.111958,0.0,0.897196,0.01,0.215784,0.0127207,0.0041361,0.000737209,0.0281629,0.0,1.0,0.0,,,,,-47.0,100.0,
0.051,0.33,1.83,0.006,0.013,0.0422,0.0083,170.0,21.0,1.0,200.0,580.0,2.0,0.369696,0.52,0.468715,0.01,0.18778,0.0266238,0.0192931,0.00130192,0.0021908,0.0,1.0,0.0,570.0,650.0,24.0,68.7,-2.0,100.0,
0.069,0.3,1.36,0.007,0.009,0.0432,0.0067,170.0,21.0,1.0,200.0,0.0,0.0,1.11594,1.49921,0.43,0.0005,0.105,0.0037,0.0005,0.0005,0.0005,0.0,1.0,0.0,,,,,-99.0,28.0,
0.076,0.37,1.36,0.005,0.009,0.0422,0.0054,170.0,21.0,1.0,200.0,580.0,2.0,0.726989,1.17437,0.0865015,0.0005,0.677512,0.0036,0.019,0.0005,0.0005,0.0,1.0,0.0,403.0,519.0,29.1,78.9,-74.0,100.0,
0.074,0.36,0.63,0.008,0.005,0.0432,0.0075,170.0,21.0,1.0,200.0,580.0,2.0,0.17443,1.17437,0.903755,0.06,0.42709,0.0031,0.0005,0.0005,0.0005,0.0,1.0,0.0,458.0,547.0,25.6,76.0,-28.0,100.0,
0.077,0.26,1.36,0.007,0.007,0.041,0.0079,170.0,21.0,1.0,200.0,580.0,2.0,1.09098,1.17437,0.43,0.0425,0.341794,0.0029,0.0005,0.0005,0.0005,0.0,1.0,0.0,526.0,594.0,26.0,76.0,-62.0,100.0,
0.073,0.34,0.64,0.007,0.005,0.0431,0.008,170.0,21.0,1.0,200.0,580.0,2.0,1.17759,1.48246,0.856493,0.0003,0.124432,0.0041,0.0005,0.0005,0.012,0.0,1.0,0.0,415.0,497.0,24.6,78.7,-38.0,100.0,
0.077,0.31,1.33,0.007,0.005,0.0419,0.008,170.0,21.0,1.0,200.0,580.0,2.0,0.164741,2.80036,0.747496,0.0004,0.0679388,0.0038,0.0005,0.0005,0.0006,0.0,1.0,0.0,372.0,497.0,31.4,76.4,-81.0,100.0,
0.079,0.29,1.79,0.006,0.007,0.0406,0.0105,170.0,21.0,1.0,200.0,580.0,2.0,2.39431,10.2264,1.35564,0.0004,0.105,0.0033,0.0005,0.0005,0.0895,0.0,1.0,0.0,638.0,716.0,17.2,68.6,4.0,100.0,
0.045,0.31,1.39,0.005,0.007,0.0422,0.0083,170.0,21.0,1.0,200.0,580.0,2.0,0.14695,1.17437,0.148706,0.01,0.639618,0.0157427,0.0317955,0.00166839,0.00775959,0.0,1.0,0.0,414.0,502.0,31.0,80.6,-50.0,129.0,
0.074,0.36,1.8,0.008,0.008,0.0422,0.0083,170.0,21.0,1.0,200.0,580.0,2.0,0.944499,1.03523,0.496384,0.0620081,0.540945,0.0182626,0.007,0.000685046,0.0334339,0.0,1.0,0.0,504.0,594.0,26.2,75.0,-70.0,30.0,
0.089,0.33,1.69,0.007,0.008,0.0422,0.0083,170.0,21.0,1.0,200.0,580.0,2.0,0.17443,6.11319,0.972436,0.168686,0.306657,0.00735694,0.00671825,0.00109804,0.0561304,0.0,1.0,0.0,490.0,597.0,30.2,75.0,-40.0,114.0,
0.074,0.33,1.45,0.005,0.005,0.0408,0.009,170.0,21.0,1.0,200.0,0.0,0.0,0.17443,1.17437,0.0586072,0.687285,0.105,0.0006,0.00118861,0.000881706,0.00775959,0.0,1.0,4.0,,,,,-60.0,28.0,
0.075,0.29,1.75,0.006,0.005,0.0272,0.0096,170.0,21.0,1.0,200.0,0.0,0.0,1.64997,1.10907,0.174114,0.01,0.0308578,0.0255,0.00664732,0.00130084,0.0219691,0.0,1.0,4.0,,,,,-80.0,28.0,
0.075,0.35,1.05,0.008,0.007,0.0361,0.0082,170.0,21.0,1.0,200.0,0.0,0.0,1.10891,2.1237,1.01382,0.0005,0.156138,0.014,0.0005,0.0005,0.0005,0.0,1.0,0.0,,,,,-45.0,100.0,
0.077,0.29,1.76,0.007,0.007,0.0396,0.0081,170.0,21.0,1.0,200.0,0.0,0.0,0.942611,0.126841,0.297759,0.0005,0.105,0.0105,0.0005,0.0005,0.0005,0.0,1.0,0.0,,,,,-53.0,100.0,
0.068,0.47,1.46,0.007,0.006,0.0297,0.0249,170.0,21.0,1.0,200.0,0.0,0.0,0.0381837,4.98687,1.53289,0.0828068,0.105,0.045,0.0129022,0.00314706,0.0280615,0.0,1.0,0.0,578.0,631.0,24.6,78.0,,,
0.101,0.17,1.02,0.008,0.012,0.0664,0.0494,180.0,34.0,1.0,175.0,750.0,8.0,1.92,9.12,1.0,0.19,0.92522,0.0185588,0.0310354,0.00192519,0.047,0.0,1.0,0.0,672.0,866.0,13.6,56.8,,,
0.055,0.39,1.99,0.01,0.022,0.0364,0.0102,170.0,21.0,1.8,100.0,250.0,16.0,0.02,3.63616,0.54,0.381633,0.02,0.00332459,0.007,0.000773697,0.021237,0.0,1.0,0.0,701.0,748.0,,,,,
0.059,0.34,0.77,0.01,0.01,0.0306,0.0066,180.0,23.0,1.0,250.0,0.0,0.0,0.311678,2.02894,0.270982,0.01,0.488276,0.011,0.007,0.00166797,0.0251532,0.0,1.0,0.0,400.0,,,,0.0,190.0,
0.088,0.37,1.59,0.011,0.01,0.0491,0.0077,180.0,23.0,1.0,250.0,0.0,0.0,0.155722,1.54255,0.668886,0.175244,0.0732728,0.012,0.003,0.00119439,0.0112113,0.0,1.0,0.0,478.0,,,,-60.0,81.0,
0.11,0.36,2.18,0.008,0.011,0.0342,0.0074,180.0,23.0,1.0,250.0,0.0,0.0,0.17443,2.13698,0.42623,0.01,0.105,0.012,0.003,0.000375097,0.00775959,0.0,1.0,0.0,617.0,,,,-20.0,107.0,
0.075,0.35,1.09,0.006,0.008,0.0424,0.0087,170.0,21.0,1.0,200.0,580.0,2.0,0.17443,1.22,0.853096,0.0823462,0.105,0.0052,0.007,0.000256695,0.00775959,0.0,1.0,0.0,,,,,-60.0,100.0,
0.08,0.62,1.86,0.013,0.016,0.0174,0.0054,700.0,32.0,4.8,200.0,0.0,0.0,0.01,0.05,0.01,0.01,0.81,0.023,0.022,0.001,0.00832468,0.0,1.0,1.0,523.0,714.0,30.0,53.0,-5.0,35.0,
0.06,0.53,1.15,0.013,0.015,0.0422,0.01,170.0,21.0,1.8,150.0,600.0,2.1,0.0,0.02,0.0,0.0,0.0,0.0,0.0057,2.58224e-05,0.0,0.0,1.0,0.0,,,,,,,
0.073,0.33,1.44,0.021,0.018,0.0563,0.0124,625.0,75.36,4.6,200.0,0.0,0.0,0.656759,5.40394,0.02,0.009,0.22,0.007,0.007,0.000540868,0.0271786,0.0,1.0,3.0,383.0,492.0,30.0,66.0,-30.0,99.0,
0.074,0.16,0.84,0.015,0.026,0.0415,0.0084,625.0,72.24,4.4,200.0,0.0,0.0,0.730677,1.17437,0.02,0.004,0.28,0.0128945,0.0360283,0.00145401,0.00775959,0.0,1.0,3.0,352.0,459.0,36.0,72.0,-40.0,139.0,
0.12,0.27,1.46,0.014,0.026,0.0365,0.0077,625.0,72.24,4.4,200.0,0.0,0.0,1.37471,1.17437,0.48,0.01,0.3,0.0112902,0.007,0.000737209,0.00775959,0.0,1.0,3.0,689.0,689.0,34.0,69.0,-60.0,41.0,
0.048,0.35,1.41,0.006,0.012,0.0422,0.0083,170.0,21.0,1.0,200.0,250.0,14.0,0.384011,4.46915,0.190482,0.797541,0.105,0.00733917,0.0361139,0.00138287,0.0303707,0.0,1.0,0.0,479.0,551.0,29.8,78.8,,,
0.105,0.3,1.5,0.018,0.011,0.037,0.0095,850.0,35.0,7.9,300.0,0.0,0.0,0.08,0.03,0.011,0.0005,0.247916,0.0101709,0.0128749,0.00177274,0.015,0.0,1.0,1.0,423.0,564.0,,71.0,,,
0.11,0.45,1.67,0.014,0.02,0.0422,0.0083,650.0,33.0,3.3,300.0,0.0,0.0,0.042,0.04,0.005,0.096,0.11,0.007,0.024,0.000965013,0.005,0.0,1.0,1.0,600.0,,30.0,68.0,,,
0.08,0.28,1.39,0.011,0.015,0.034,0.0054,650.0,33.0,3.3,300.0,600.0,0.75,0.028,0.03,0.17,0.049,0.044,0.005,0.012,0.000592043,0.015,0.0,1.0,1.0,642.0,732.0,22.0,58.0,,,
0.12,0.3,1.4,0.016,0.025,0.021,0.005,650.0,33.0,3.3,300.0,0.0,0.0,0.14,0.11,0.025,0.685423,0.25,0.00338152,0.015,0.000737209,0.005,0.0,1.0,1.0,426.0,652.0,21.0,54.0,,,
0.07,0.23,1.0,0.002,0.006,0.046,0.025,116.0,23.0,1.3,175.0,0.0,0.0,0.58,8.3,0.93,0.24,0.01,0.01,0.01,0.00174709,0.034,0.0,1.0,0.0,,,,,,,398.0
0.1,0.42,0.96,0.003,0.006,0.04,0.043,143.0,21.0,1.1,200.0,760.0,8.0,0.17,8.8,1.01,0.21,0.02,1e-06,1e-06,0.00187928,0.09,0.0,1.0,0.0,,,,,-20.0,10.0,
0.1,0.19,0.53,0.007,0.007,0.022,0.0083,500.0,32.0,2.0,250.0,690.0,10.0,0.2,2.7,1.03,0.344435,0.384005,0.0240159,0.015,0.00227965,0.035917,0.0,1.0,5.0,456.0,592.0,29.0,,24.0,270.0,
0.14,0.18,0.75,0.002,0.005,0.0256,0.0021,500.0,29.0,2.9,200.0,690.0,8.0,0.17443,2.3,1.01,0.27,0.321112,0.0227292,0.0214395,0.00157002,0.02,1.0,0.0,1.0,,770.0,,,-20.0,80.0,
0.06,0.2,1.15,0.007,0.017,0.035,0.0097,170.0,21.0,2.4,125.0,605.0,1.92,0.16,0.052,0.45,0.01,0.128,6.31498e-05,0.007,0.000149547,0.0403658,0.0,1.0,1.0,,,,,,,
0.043,0.12,0.86,0.011,0.017,0.0922,0.0123,300.0,20.0,2.08,150.0,690.0,10.0,0.2,2.01,0.93,0.02,0.419868,0.011241,0.00318514,0.000990626,0.0421612,0.0,1.0,2.0,505.0,600.0,19.0,69.0,0.0,12.0,
0.074,0.27,1.11,0.009,0.024,0.0556,0.0113,290.0,29.0,2.0,150.0,690.0,10.0,0.17,2.3,0.96,0.018,0.469352,0.007,0.00244738,0.000737209,0.0153121,0.0,1.0,2.0,595.0,675.0,24.0,69.0,20.0,52.0,
0.075,0.35,0.8,0.02,0.017,0.055,0.0083,150.0,37.5,1.0,300.0,690.0,3.0,0.418129,2.3,1.5,0.01,0.128578,0.0137007,0.00976654,0.00146862,0.00775959,0.0,1.0,0.0,546.0,648.0,18.0,17.0,,,220.0
0.08,0.25,0.8,0.01,0.01,0.0422,0.0083,525.0,30.0,1.75,210.0,700.0,20.0,0.03,2.3,1.05,0.01,0.02,0.0105766,0.007,0.000282813,0.04992,0.0,1.0,1.0,507.0,613.0,,,-10.0,197.0,
0.1,0.28,0.82,0.012,0.014,0.0258,0.0045,900.0,33.0,4.8,100.0,200.0,1.0,0.0,0.0,0.0,0.0,0.0,0.0215444,0.02,0.0017266,0.0,0.0,1.0,1.0,356.0,483.0,32.3,72.0,,,
0.066,0.8,1.12,0.017,0.021,0.0774,0.0026,550.0,30.0,2.475,250.0,200.0,1.0,0.0,0.0,0.0,0.0,0.0,0.0088324,0.033,0.000430711,0.0,0.0,1.0,1.0,469.0,561.0,29.0,69.0,,,
0.073,0.34,0.66,0.007,0.007,0.0454,0.0075,170.0,21.0,1.0,200.0,250.0,14.0,0.0,0.0,0.5,0.0005,0.0,0.0005,0.0005,0.0005,0.0005,0.0,0.0,0.0,470.0,559.0,24.6,75.0,-76.0,28.0,
0.072,0.32,0.66,0.007,0.007,0.0411,0.0076,170.0,21.0,1.0,200.0,250.0,14.0,0.0,0.0,1.03,0.0005,0.0,0.004,0.0005,0.0005,0.0005,0.0,0.0,0.0,565.0,644.0,23.6,76.0,-33.0,100.0,
0.076,0.24,1.41,0.008,0.006,0.0447,0.0085,170.0,21.0,1.0,200.0,250.0,14.0,0.0,0.0,1.11,0.0005,0.0,0.0005,0.0005,0.0005,0.0005,0.0,0.0,0.0,594.0,699.0,19.2,68.6,-50.0,28.0,
0.079,0.3,1.56,0.007,0.011,0.0431,0.0098,170.0,21.0,1.0,200.0,250.0,14.0,0.0,1.03,0.0,0.0005,0.0,0.0027,0.0005,0.0005,0.0005,0.0,0.0,0.0,624.0,672.0,20.0,73.0,-58.0,100.0,
0.18,0.39,0.88,0.008,0.017,0.0327,0.0103,450.0,30.0,2.0,200.0,760.0,2.0,0.18,10.2,0.94,0.28,0.23537,0.00976299,0.0202912,0.00112024,0.005,0.0,1.0,1.0,,,,,,,